{
  "resourceType": "Bundle",
  "type": "collection",
  "entry": [
    {
      "fullUrl": "urn:uuid:adverse-event-uuid",
      "resource": {
        "resourceType": "AdverseEvent",
        "id": "adverse-event-uuid",
        "subject": {
          "reference": "urn:uuid:patient-uuid"
        },
        "recorder": {
          "reference": "urn:uuid:practitioner-uuid"
        }
      }
    },
    {
      "fullUrl": "urn:uuid:patient-uuid",
      "resource": {
        "resourceType": "Patient",
        "id": "patient-uuid",
        "birthDate": "YYYY-MM-DD",
        "gender": "male"
      }
    },
    {
      "fullUrl": "urn:uuid:practitioner-uuid",
      "resource": {
        "resourceType": "Practitioner",
        "id": "practitioner-uuid"
      }
    }
  ]
}